Wavelength	Transmittance	hex_color	Manufacturer	Name	Filter Number
400	0.05573	#838383	Omega	"HPOIII - High Performance OIII (503BP12) 1.25"" Astronomy Filter Bandpass"	XAF-HPOIII125
401	0.05959				
402	0.067				
403	0.08066000000000001				
404	0.10458				
405	0.14859999999999998				
406	0.23555				
407	0.42036999999999997				
408	0.7281				
409	0.8708499999999999				
410	0.636				
411	0.3833				
412	0.25656				
413	0.20004000000000002				
414	0.18317				
415	0.20058				
416	0.27758				
417	0.50287				
418	0.7528				
419	0.40716				
420	0.12019				
421	0.04276				
422	0.019030000000000002				
423	0.009729999999999999				
424	0.00557				
425	0.0034699999999999996				
426	0.00223				
427	0.0015				
428	0.00108				
429	0.0008				
430	0.00061				
431	0.00046				
432	0.00035999999999999997				
433	0.00028000000000000003				
434	0.00025				
435	0.00018999999999999998				
436	0.00017				
437	0.00015				
438	0.00012				
439	0.0001				
440	8.999999999999999e-05				
441	0.0001				
442	8.999999999999999e-05				
443	7.000000000000001e-05				
444	6e-05				
445	0.0001				
446	8e-05				
447	5e-05				
448	5e-05				
449	5e-05				
450	6e-05				
451	6e-05				
452	7.000000000000001e-05				
453	7.000000000000001e-05				
454	5e-05				
455	4e-05				
456	6e-05				
457	4e-05				
458	7.000000000000001e-05				
459	6e-05				
460	6e-05				
461	7.000000000000001e-05				
462	8e-05				
463	8e-05				
464	8.999999999999999e-05				
465	7.000000000000001e-05				
466	0.00012				
467	0.00010999999999999999				
468	0.00010999999999999999				
469	0.00013				
470	0.00015				
471	0.00018999999999999998				
472	0.00021				
473	0.00024				
474	0.00028000000000000003				
475	0.00035999999999999997				
476	0.00043999999999999996				
477	0.00053				
478	0.00066				
479	0.00082				
480	0.00106				
481	0.00136				
482	0.00179				
483	0.00241				
484	0.00329				
485	0.0046700000000000005				
486	0.006690000000000001				
487	0.00986				
488	0.015149999999999999				
489	0.02416				
490	0.04025				
491	0.06972				
492	0.12663				
493	0.23436				
494	0.41904				
495	0.65693				
496	0.8534900000000001				
497	0.9320900000000001				
498	0.9349500000000001				
499	0.9221299999999999				
500	0.91997				
501	0.92904				
502	0.93818				
503	0.9437099999999999				
504	0.94242				
505	0.93868				
506	0.93434				
507	0.91649				
508	0.8563299999999999				
509	0.7226699999999999				
510	0.5288				
511	0.34292				
512	0.20721				
513	0.12386				
514	0.07588				
515	0.04771				
516	0.03092				
517	0.02088				
518	0.014539999999999999				
519	0.010329999999999999				
520	0.00754				
521	0.005659999999999999				
522	0.00432				
523	0.0033				
524	0.00264				
525	0.0021				
526	0.0017000000000000001				
527	0.0014000000000000002				
528	0.00116				
529	0.00098				
530	0.00082				
531	0.0006900000000000001				
532	0.00062				
533	0.00053				
534	0.00047				
535	0.00041				
536	0.00037				
537	0.00034				
538	0.00031				
539	0.0003				
540	0.00028000000000000003				
541	0.00023				
542	0.00024				
543	0.0002				
544	0.00017999999999999998				
545	0.00016				
546	0.00015				
547	0.00017999999999999998				
548	0.00015				
549	0.00014000000000000001				
550	0.00014000000000000001				
551	0.00014000000000000001				
552	0.00015				
553	0.00013				
554	0.00012				
555	0.00012				
556	0.00013				
557	0.00010999999999999999				
558	0.0001				
559	0.00014000000000000001				
560	0.00012				
561	0.00013				
562	0.0001				
563	0.00012				
564	0.00010999999999999999				
565	0.00012				
566	0.00012				
567	0.00013				
568	0.00014000000000000001				
569	0.00015				
570	0.00012				
571	0.00014000000000000001				
572	0.00015				
573	0.00016				
574	0.00015				
575	0.00017				
576	0.00017				
577	0.00016				
578	0.00018999999999999998				
579	0.00021				
580	0.00021				
581	0.00021999999999999998				
582	0.00023				
583	0.00025				
584	0.00026				
585	0.0003				
586	0.00031				
587	0.00035000000000000005				
588	0.00037999999999999997				
589	0.00041				
590	0.00043999999999999996				
591	0.00048				
592	0.00053				
593	0.00057				
594	0.00064				
595	0.0007099999999999999				
596	0.00079				
597	0.0008699999999999999				
598	0.001				
599	0.00115				
600	0.00126				
601	0.00148				
602	0.00169				
603	0.0019500000000000001				
604	0.00227				
605	0.00265				
606	0.00315				
607	0.0037199999999999998				
608	0.00446				
609	0.00538				
610	0.00657				
611	0.00807				
612	0.010089999999999998				
613	0.01272				
614	0.01631				
615	0.02125				
616	0.028399999999999998				
617	0.03862				
618	0.05409				
619	0.07855000000000001				
620	0.11918				
621	0.18771000000000002				
622	0.30757				
623	0.50802				
624	0.77091				
625	0.92712				
626	0.85016				
627	0.6590900000000001				
628	0.49154000000000003				
629	0.37912				
630	0.30555				
631	0.25675000000000003				
632	0.22419				
633	0.20254999999999998				
634	0.18827000000000002				
635	0.17920000000000003				
636	0.17451				
637	0.1734				
638	0.17495999999999998				
639	0.18001				
640	0.18822				
641	0.1997				
642	0.21513000000000002				
643	0.23552				
644	0.26151				
645	0.29443				
646	0.33628				
647	0.38966				
648	0.4551				
649	0.5348700000000001				
650	0.63105				
651	0.73764				
652	0.8400799999999999				
653	0.92023				
654	0.95443				
655	0.92947				
656	0.8573000000000001				
657	0.7571599999999999				
658	0.65038				
659	0.55177				
660	0.46793999999999997				
661	0.39880000000000004				
662	0.34119				
663	0.29536				
664	0.25878				
665	0.22917				
666	0.20494				
667	0.18530000000000002				
668	0.16909				
669	0.15561				
670	0.14432				
671	0.13491				
672	0.12698				
673	0.12035				
674	0.11471				
675	0.10994				
676	0.10605				
677	0.10291				
678	0.10032				
679	0.09831				
680	0.09666000000000001				
681	0.09547				
682	0.09472				
683	0.09438				
684	0.09433				
685	0.09462999999999999				
686	0.09539				
687	0.09641				
688	0.09777				
689	0.09942999999999999				
690	0.10157999999999999				
691	0.10392				
692	0.10672000000000001				
693	0.10981999999999999				
694	0.11344				
695	0.11750999999999999				
696	0.122				
697	0.12699				
698	0.13258				
699	0.13857				
700	0.14522000000000002				
701	0.15262				
702	0.16066				
703	0.16952				
704	0.17928				
705	0.18993				
706	0.20149				
707	0.21408000000000002				
708	0.22752				
709	0.2426				
710	0.25845				
711	0.27553				
712	0.29398				
713	0.31392				
714	0.33546				
715	0.35771000000000003				
716	0.38255				
717	0.40783				
718	0.43506999999999996				
719	0.46251				
720	0.49234				
721	0.52196				
722	0.55128				
723	0.58145				
724	0.61219				
725	0.6418600000000001				
726	0.67132				
727	0.6994				
728	0.72655				
729	0.75248				
730	0.77422				
731	0.7962600000000001				
732	0.81686				
733	0.83318				
734	0.84923				
735	0.86359				
736	0.87721				
737	0.88824				
738	0.89652				
739	0.90342				
740	0.9092600000000001				
741	0.91566				
742	0.9209				
743	0.92407				
744	0.92726				
745	0.9297799999999999				
746	0.93336				
747	0.93458				
748	0.9367300000000001				
749	0.93822				
750	0.9389799999999999				
