Wavelength	Transmittance	hex_color	Manufacturer	Name	Filter Number
400	0.28019	#838383	Omega	545DCLP Dichroic	W2908
401	0.32406				
402	0.39043999999999995				
403	0.49348				
404	0.6300399999999999				
405	0.78033				
406	0.8526600000000001				
407	0.80958				
408	0.66482				
409	0.45091000000000003				
410	0.30847				
411	0.20944				
412	0.155				
413	0.11169000000000001				
414	0.08206				
415	0.059519999999999997				
416	0.04752				
417	0.03723				
418	0.03047				
419	0.0241				
420	0.02008				
421	0.01705				
422	0.0148				
423	0.01257				
424	0.011160000000000002				
425	0.009559999999999999				
426	0.00838				
427	0.00772				
428	0.006520000000000001				
429	0.005639999999999999				
430	0.005600000000000001				
431	0.00477				
432	0.00404				
433	0.0038				
434	0.00378				
435	0.00383				
436	0.0035499999999999998				
437	0.00311				
438	0.0028399999999999996				
439	0.00308				
440	0.00246				
441	0.00213				
442	0.0023499999999999997				
443	0.0021				
444	0.0024				
445	0.0019				
446	0.00202				
447	0.0020399999999999997				
448	0.0019500000000000001				
449	0.0018				
450	0.00189				
451	0.00183				
452	0.00218				
453	0.00167				
454	0.0018599999999999999				
455	0.00189				
456	0.00192				
457	0.0017299999999999998				
458	0.00183				
459	0.00172				
460	0.0020499999999999997				
461	0.00217				
462	0.00181				
463	0.00203				
464	0.00179				
465	0.00187				
466	0.00196				
467	0.00184				
468	0.00215				
469	0.0018599999999999999				
470	0.00209				
471	0.0023499999999999997				
472	0.00223				
473	0.00194				
474	0.00197				
475	0.00221				
476	0.00267				
477	0.00209				
478	0.0030399999999999997				
479	0.0028399999999999996				
480	0.00266				
481	0.0032700000000000003				
482	0.00317				
483	0.00363				
484	0.00381				
485	0.0040100000000000005				
486	0.0042699999999999995				
487	0.00458				
488	0.00501				
489	0.0051600000000000005				
490	0.0057399999999999994				
491	0.005580000000000001				
492	0.00639				
493	0.0064800000000000005				
494	0.00645				
495	0.0070799999999999995				
496	0.00718				
497	0.00777				
498	0.0084				
499	0.00995				
500	0.01031				
501	0.01151				
502	0.01194				
503	0.013080000000000001				
504	0.01435				
505	0.01516				
506	0.01629				
507	0.01724				
508	0.01907				
509	0.021110000000000004				
510	0.022949999999999998				
511	0.02569				
512	0.02767				
513	0.03068				
514	0.0335				
515	0.03644				
516	0.04029				
517	0.044950000000000004				
518	0.04872				
519	0.054450000000000005				
520	0.05946				
521	0.0659				
522	0.07472000000000001				
523	0.08068				
524	0.0911				
525	0.10186				
526	0.11283				
527	0.12789				
528	0.14418				
529	0.15843				
530	0.17584				
531	0.19795000000000001				
532	0.2223				
533	0.25273				
534	0.28108				
535	0.30475				
536	0.34018				
537	0.37396999999999997				
538	0.41709				
539	0.46259999999999996				
540	0.50256				
541	0.54686				
542	0.59242				
543	0.6284000000000001				
544	0.67704				
545	0.72051				
546	0.7591100000000001				
547	0.78456				
548	0.81715				
549	0.8417100000000001				
550	0.8628				
551	0.88437				
552	0.89969				
553	0.90823				
554	0.91769				
555	0.92281				
556	0.9268000000000001				
557	0.9285899999999999				
558	0.92824				
559	0.9278				
560	0.9245				
561	0.9223600000000001				
562	0.92134				
563	0.9186700000000001				
564	0.91648				
565	0.91647				
566	0.91349				
567	0.9112600000000001				
568	0.90887				
569	0.9085				
570	0.9074				
571	0.9069400000000001				
572	0.90715				
573	0.90728				
574	0.90805				
575	0.9077				
576	0.90881				
577	0.90865				
578	0.91035				
579	0.91294				
580	0.9150499999999999				
581	0.9156399999999999				
582	0.91767				
583	0.9192199999999999				
584	0.92187				
585	0.92404				
586	0.9261400000000001				
587	0.9297				
588	0.9307899999999999				
589	0.93262				
590	0.9334				
591	0.93587				
592	0.93672				
593	0.93964				
594	0.94172				
595	0.94226				
596	0.94428				
597	0.9454699999999999				
598	0.9461700000000001				
599	0.9498399999999999				
600	0.94923				
601	0.95016				
602	0.9504600000000001				
603	0.9497				
604	0.95173				
605	0.95255				
606	0.9514900000000001				
607	0.95217				
608	0.9522799999999999				
609	0.95148				
610	0.95159				
611	0.9521				
612	0.9521299999999999				
613	0.94911				
614	0.95163				
615	0.9506999999999999				
616	0.9487399999999999				
617	0.94648				
618	0.94705				
619	0.94632				
620	0.94403				
621	0.94494				
622	0.9424800000000001				
623	0.94318				
624	0.9407899999999999				
625	0.94026				
626	0.93711				
627	0.9359000000000001				
628	0.9339799999999999				
629	0.93368				
630	0.93147				
631	0.93059				
632	0.92958				
633	0.92901				
634	0.9270499999999999				
635	0.92404				
636	0.92401				
637	0.9231199999999999				
638	0.9228700000000001				
639	0.91948				
640	0.91873				
641	0.91795				
642	0.9166200000000001				
643	0.91497				
644	0.9120199999999999				
645	0.91205				
646	0.91156				
647	0.9098900000000001				
648	0.90957				
649	0.90801				
650	0.90876				
651	0.90857				
652	0.90667				
653	0.9054000000000001				
654	0.90558				
655	0.90473				
656	0.90413				
657	0.90557				
658	0.90384				
659	0.90496				
660	0.90401				
661	0.90461				
662	0.90414				
663	0.90445				
664	0.90333				
665	0.90387				
666	0.904				
667	0.90339				
668	0.90539				
669	0.90487				
670	0.90656				
671	0.9080800000000001				
672	0.90819				
673	0.9102				
674	0.9102				
675	0.91218				
676	0.91121				
677	0.91277				
678	0.9127200000000001				
679	0.91491				
680	0.91557				
681	0.9177200000000001				
682	0.91849				
683	0.9192400000000001				
684	0.9210200000000001				
685	0.92238				
686	0.9242900000000001				
687	0.92388				
688	0.92779				
689	0.92742				
690	0.92732				
691	0.92896				
692	0.9303199999999999				
693	0.93135				
694	0.9322400000000001				
695	0.934				
696	0.93419				
697	0.93491				
698	0.93573				
699	0.9374800000000001				
700	0.93593				
