Wavelength	Transmittance	hex_color	Manufacturer	Name	Filter Number
205	0.010589999999999999	#000000	Tangsinuo	HWB940-1_5mm	0
210	0.010589999999999999				
215	0.010740000000000001				
220	0.010740000000000001				
225	0.010740000000000001				
230	0.010740000000000001				
235	0.010740000000000001				
240	0.010740000000000001				
245	0.010740000000000001				
250	0.010740000000000001				
255	0.010740000000000001				
260	0.010740000000000001				
265	0.010740000000000001				
270	0.010740000000000001				
275	0.010740000000000001				
280	0.010740000000000001				
285	0.010740000000000001				
290	0.010740000000000001				
295	0.010700000000000001				
300	0.01065				
305	0.010740000000000001				
310	0.010740000000000001				
315	0.010740000000000001				
320	0.010740000000000001				
325	0.010740000000000001				
330	0.010740000000000001				
335	0.010740000000000001				
340	0.010740000000000001				
345	0.010740000000000001				
350	0.010740000000000001				
355	0.010740000000000001				
360	0.010740000000000001				
365	0.010740000000000001				
370	0.010740000000000001				
375	0.010740000000000001				
380	0.010740000000000001				
385	0.010740000000000001				
390	0.010740000000000001				
395	0.010709999999999999				
400	0.01069				
405	0.01069				
410	0.01073				
415	0.010740000000000001				
420	0.010740000000000001				
425	0.010740000000000001				
430	0.010740000000000001				
435	0.010740000000000001				
440	0.010740000000000001				
445	0.010740000000000001				
450	0.010740000000000001				
455	0.010740000000000001				
460	0.010740000000000001				
465	0.010740000000000001				
470	0.010740000000000001				
475	0.010740000000000001				
480	0.010740000000000001				
485	0.010740000000000001				
490	0.010740000000000001				
495	0.010740000000000001				
500	0.010740000000000001				
505	0.010740000000000001				
510	0.010740000000000001				
515	0.010740000000000001				
520	0.010740000000000001				
525	0.010740000000000001				
530	0.010740000000000001				
535	0.010740000000000001				
540	0.010740000000000001				
545	0.010740000000000001				
550	0.010740000000000001				
555	0.010740000000000001				
560	0.010740000000000001				
565	0.010740000000000001				
570	0.010740000000000001				
575	0.010740000000000001				
580	0.010740000000000001				
585	0.010740000000000001				
590	0.010740000000000001				
595	0.010740000000000001				
600	0.01072				
605	0.010700000000000001				
610	0.010740000000000001				
615	0.010740000000000001				
620	0.010740000000000001				
625	0.010740000000000001				
630	0.010740000000000001				
635	0.010740000000000001				
640	0.010740000000000001				
645	0.010740000000000001				
650	0.010740000000000001				
655	0.010740000000000001				
660	0.010740000000000001				
665	0.010740000000000001				
670	0.010740000000000001				
675	0.010740000000000001				
680	0.010740000000000001				
685	0.010740000000000001				
690	0.010740000000000001				
695	0.010740000000000001				
700	0.010589999999999999				
705	0.01045				
710	0.01044				
715	0.01068				
720	0.010740000000000001				
725	0.010740000000000001				
730	0.010740000000000001				
735	0.010740000000000001				
740	0.010740000000000001				
745	0.010740000000000001				
750	0.010740000000000001				
755	0.010740000000000001				
760	0.010740000000000001				
765	0.010740000000000001				
770	0.010740000000000001				
775	0.010740000000000001				
780	0.010740000000000001				
785	0.01076				
790	0.01084				
795	0.01113				
800	0.01184				
805	0.01269				
810	0.013779999999999999				
815	0.015309999999999999				
820	0.01713				
825	0.01941				
830	0.022160000000000003				
835	0.0254				
840	0.0296				
845	0.034409999999999996				
850	0.03991				
855	0.046509999999999996				
860	0.05402				
865	0.06249				
870	0.07183				
875	0.08191000000000001				
880	0.09295999999999999				
885	0.10542				
890	0.11842000000000001				
895	0.13241				
900	0.14737999999999998				
905	0.16319				
910	0.17984999999999998				
915	0.19664				
920	0.21423999999999999				
925	0.23198				
930	0.24985				
935	0.26811				
940	0.28633				
945	0.30523				
950	0.32459000000000005				
955	0.34314				
960	0.36171				
965	0.37988999999999995				
970	0.39740000000000003				
975	0.41445				
980	0.43174999999999997				
985	0.44803				
990	0.46436				
995	0.48062				
1000	0.49613				
1005	0.51128				
1010	0.52618				
1015	0.53996				
1020	0.55402				
1025	0.56637				
1030	0.57902				
1035	0.59112				
1040	0.60297				
1045	0.61354				
1050	0.62314				
1055	0.63215				
1060	0.6410399999999999				
1065	0.64771				
1070	0.65322				
1075	0.65805				
1080	0.6627299999999999				
1085	0.66642				
1090	0.6697				
1095	0.67282				
