Wavelength	Transmittance	hex_color	Manufacturer	Name	Filter Number
350	0.0001	#000000	MidOpt	Near-IR Interference Bandpass Filter	Bi940
352	0.0003				
354	0.0006				
356	0.0013				
358	0.0029				
360	0.0078000000000000005				
362	0.0183				
364	0.0351				
366	0.053399999999999996				
368	0.06480000000000001				
370	0.06269999999999999				
372	0.0482				
374	0.0288				
376	0.013000000000000001				
378	0.0042				
380	0.0011				
382	0.0006				
384	0.0005				
386	0.0006				
388	0.0009				
390	0.0013				
392	0.0015				
394	0.0016				
396	0.0014000000000000002				
398	0.0011				
400	0.0009				
402	0.0011				
404	0.0012				
406	0.0012				
408	0.0009				
410	0.0006				
412	0.0003				
414	0.0002				
416	0.0002				
418	0.0002				
420	0.0003				
422	0.0004				
424	0.0004				
426	0.0005				
428	0.0005				
430	0.0005				
432	0.0004				
434	0.0004				
436	0.0003				
438	0.0004				
440	0.0005				
442	0.0007000000000000001				
444	0.0008				
446	0.0008				
448	0.0008				
450	0.0006				
452	0.0004				
454	0.0003				
456	0.0002				
458	0.0003				
460	0.0005				
462	0.001				
464	0.0017000000000000001				
466	0.0021				
468	0.0021				
470	0.0017000000000000001				
472	0.0013				
474	0.0009				
476	0.0009				
478	0.001				
480	0.0009				
482	0.0007000000000000001				
484	0.0004				
486	0.0003				
488	0.0002				
490	0.0002				
492	0.0004				
494	0.0005				
496	0.0007000000000000001				
498	0.0009				
500	0.001				
502	0.0011				
504	0.001				
506	0.0009				
508	0.0007000000000000001				
510	0.0005				
512	0.0004				
514	0.0003				
516	0.0004				
518	0.0006				
520	0.0009				
522	0.001				
524	0.001				
526	0.0009				
528	0.0007000000000000001				
530	0.0006				
532	0.0007000000000000001				
534	0.001				
536	0.0012				
538	0.0013				
540	0.0012				
542	0.001				
544	0.0009				
546	0.0008				
548	0.0008				
550	0.0008				
552	0.0008				
554	0.0007000000000000001				
556	0.0005				
558	0.0003				
560	0.0003				
562	0.0003				
564	0.0003				
566	0.0003				
568	0.0004				
570	0.0006				
572	0.0008				
574	0.001				
576	0.0012				
578	0.0014000000000000002				
580	0.0016				
582	0.0017000000000000001				
584	0.0019				
586	0.002				
588	0.0021				
590	0.0022				
592	0.0023				
594	0.0023				
596	0.0023				
598	0.0023				
600	0.0023				
602	0.0021				
604	0.0017000000000000001				
606	0.0012				
608	0.0007000000000000001				
610	0.0004				
612	0.0003				
614	0.0003				
616	0.0004				
618	0.0008				
620	0.0012				
622	0.0016				
624	0.0018				
626	0.0018				
628	0.0015				
630	0.0012				
632	0.0008				
634	0.0005				
636	0.0003				
638	0.0004				
640	0.0006				
642	0.001				
644	0.0015				
646	0.0017000000000000001				
648	0.0016				
650	0.0012				
652	0.0009				
654	0.0008				
656	0.001				
658	0.0017000000000000001				
660	0.0024				
662	0.0031				
664	0.0034000000000000002				
666	0.0032				
668	0.0028000000000000004				
670	0.0023				
672	0.0021				
674	0.0021				
676	0.002				
678	0.0018				
680	0.0016				
682	0.0014000000000000002				
684	0.0014000000000000002				
686	0.0015				
688	0.0016				
690	0.0016				
692	0.0015				
694	0.0013				
696	0.0011				
698	0.0011				
700	0.0013				
702	0.0018				
704	0.0024				
706	0.0032				
708	0.0037				
710	0.0039000000000000003				
712	0.004				
714	0.0042				
716	0.0043				
718	0.0042				
720	0.0038				
722	0.0029				
724	0.002				
726	0.0012				
728	0.0008				
730	0.0006				
732	0.0006				
734	0.0008				
736	0.0013				
738	0.002				
740	0.003				
742	0.0036				
744	0.0037				
746	0.0031				
748	0.0022				
750	0.0016				
752	0.0012				
754	0.0011				
756	0.0012				
758	0.0014000000000000002				
760	0.0018				
762	0.0022				
764	0.0025				
766	0.0026				
768	0.0025				
770	0.0022				
772	0.0017000000000000001				
774	0.0013				
776	0.0009				
778	0.0006				
780	0.0004				
782	0.0003				
784	0.0002				
786	0.0002				
788	0.0001				
790	0.0002				
792	0.0002				
794	0.0002				
796	0.0002				
798	0.0002				
800	0.0002				
802	0.0003				
804	0.0004				
806	0.0005				
808	0.0007000000000000001				
810	0.0009				
812	0.0011				
814	0.0015				
816	0.0018				
818	0.0021				
820	0.0021				
822	0.002				
824	0.0016				
826	0.0012				
828	0.0009				
830	0.0007000000000000001				
832	0.0005				
834	0.0004				
836	0.0003				
838	0.0003				
840	0.0003				
842	0.0003				
844	0.0003				
846	0.0004				
848	0.0004				
850	0.0004				
852	0.0005				
854	0.0008				
856	0.001				
858	0.0014000000000000002				
860	0.0019				
862	0.0025				
864	0.0032				
866	0.0038				
868	0.0044				
870	0.005				
872	0.0054				
874	0.0055000000000000005				
876	0.0059				
878	0.0058				
880	0.0054				
882	0.0048				
884	0.004699999999999999				
886	0.004699999999999999				
888	0.004				
890	0.0036				
892	0.004				
894	0.0043				
896	0.004699999999999999				
898	0.005				
900	0.0058				
902	0.0064				
904	0.0078000000000000005				
906	0.0097				
908	0.013500000000000002				
910	0.019799999999999998				
912	0.0313				
914	0.051500000000000004				
916	0.09119999999999999				
918	0.1602				
920	0.26530000000000004				
922	0.3993				
924	0.5466				
926	0.6808				
928	0.7839				
930	0.8473				
932	0.8785				
934	0.8898				
936	0.8920999999999999				
938	0.893				
940	0.8928				
942	0.8917				
944	0.8856				
946	0.8674				
948	0.8253				
950	0.7513				
952	0.6441				
954	0.512				
956	0.3724				
958	0.24609999999999999				
960	0.1497				
962	0.086				
964	0.0487				
966	0.0278				
968	0.0167				
970	0.0104				
972	0.0069				
974	0.004699999999999999				
976	0.0034000000000000002				
978	0.0026				
980	0.0021				
982	0.0017000000000000001				
984	0.0015				
986	0.0013				
988	0.0011				
990	0.0011				
992	0.001				
994	0.001				
996	0.0008				
998	0.0009				
1000	0.0008				
1002	0.0009				
1004	0.0009				
1006	0.0011				
1008	0.0011				
1010	0.0012				
1012	0.0014000000000000002				
1014	0.0018				
1016	0.0022				
1018	0.0025				
1020	0.0028000000000000004				
1022	0.0033				
1024	0.0036				
1026	0.0036				
1028	0.0034999999999999996				
1030	0.0033				
1032	0.0031				
1034	0.0028000000000000004				
1036	0.0027				
1038	0.0027				
1040	0.0028000000000000004				
1042	0.0029				
1044	0.0031				
1046	0.0033				
1048	0.0036				
1050	0.0037				
1052	0.0037				
1054	0.0034999999999999996				
1056	0.0032				
1058	0.0027				
1060	0.0023				
1062	0.0019				
1064	0.0015				
1066	0.0014000000000000002				
1068	0.0011				
1070	0.001				
1072	0.0008				
1074	0.0007000000000000001				
1076	0.0007000000000000001				
1078	0.0007000000000000001				
1080	0.0006				
1082	0.0005				
1084	0.0006				
1086	0.0006				
1088	0.0006				
1090	0.0006				
1092	0.0007000000000000001				
1094	0.0008				
1096	0.0009				
1098	0.001				
1100	0.0012				
